"","whichPrime","trialType","rt","response","trial_index","time_elapsed","word","expectedCategory","expectedCategoryAsDisplayed","leftCategory","rightCategory","correct","question_order"
"1","maleCareer","prime",53095," ",2,77568,"","","","","","",""
"2","","iat",1973,"f",5,89686,"men","men","men","men","women","true",""
"3","","iat",1618,"f",7,91558,"men","men","men","men","women","true",""
"4","","iat",647,"j",9,92460,"women","women","women","men","women","true",""
"5","","iat",888,"f",11,93602,"men","men","men","men","women","true",""
"6","","iat",686,"j",13,94543,"women","women","women","men","women","true",""
"7","","iat",686,"f",15,95484,"men","men","men","men","women","true",""
"8","","iat",666,"j",17,96404,"women","women","women","men","women","true",""
"9","","iat",637,"j",19,97296,"women","women","women","men","women","true",""
"10","","iat",655,"j",21,98205,"women","women","women","men","women","true",""
"11","","iat",949,"j",23,99408,"women","women","women","men","women","true",""
"12","","iat",672,"f",25,100334,"men","men","men","men","women","true",""
"13","","iat",692,"f",27,101279,"men","men","men","men","women","true",""
"14","","iat",588,"f",29,102122,"men","men","men","men","women","true",""
"15","","iat",671,"j",31,103048,"women","women","women","men","women","true",""
"16","","iat",773,"f",33,104076,"men","men","men","men","women","true",""
"17","","iat",630,"j",35,104961,"women","women","women","men","women","true",""
"18","","iat",747,"f",37,105963,"men","men","men","men","women","true",""
"19","","iat",787,"f",39,107004,"men","men","men","men","women","true",""
"20","","iat",701,"f",41,107959,"men","men","men","men","women","true",""
"21","","iat",604,"f",43,108817,"men","men","men","men","women","true",""
"22","","iat",618,"f",45,109690,"men","men","men","men","women","true",""
"23","","iat",899,"j",47,110844,"men","men","men","men","women","false",""
"24","","iat",624,"f",49,111723,"men","men","men","men","women","true",""
"25","","iat",908,"j",51,112886,"women","women","women","men","women","true",""
"26","","iat",624,"j",53,113765,"women","women","women","men","women","true",""
"27","","iat",719,"f",55,114737,"men","men","men","men","women","true",""
"28","","iat",789,"f",57,115781,"women","women","women","men","women","false",""
"29","","iat",1400,"f",59,117436,"men","men","men","men","women","true",""
"30","","iat",730,"j",61,118421,"women","women","women","men","women","true",""
"31","","iat",1553,"j",63,120229,"women","women","women","men","women","true",""
"32","","iat",1179,"j",65,121662,"women","women","women","men","women","true",""
"33","","iat",678,"j",67,122595,"women","women","women","men","women","true",""
"34","","iat",568,"j",69,123417,"women","women","women","men","women","true",""
"35","","iat",587,"j",71,124259,"women","women","women","men","women","true",""
"36","","iat",748,"j",73,125260,"women","women","women","men","women","true",""
"37","","iat",638,"f",75,126153,"men","men","men","men","women","true",""
"38","","iat",1688,"j",78,132206,"career","career","career","family","career","true",""
"39","","iat",971,"f",80,133431,"family","family","family","family","career","true",""
"40","","iat",731,"f",82,134415,"family","family","family","family","career","true",""
"41","","iat",738,"f",84,135407,"family","family","family","family","career","true",""
"42","","iat",879,"f",86,136540,"family","family","family","family","career","true",""
"43","","iat",878,"f",88,137673,"family","family","family","family","career","true",""
"44","","iat",1416,"j",90,139345,"career","career","career","family","career","true",""
"45","","iat",714,"f",92,140314,"family","family","family","family","career","true",""
"46","","iat",1500,"f",94,142067,"family","family","family","family","career","true",""
"47","","iat",962,"j",96,143282,"career","career","career","family","career","true",""
"48","","iat",901,"j",98,144437,"career","career","career","family","career","true",""
"49","","iat",653,"j",100,145344,"career","career","career","family","career","true",""
"50","","iat",891,"f",102,146490,"family","family","family","family","career","true",""
"51","","iat",750,"j",104,147495,"career","career","career","family","career","true",""
"52","","iat",1569,"f",106,149317,"family","family","family","family","career","true",""
"53","","iat",1016,"j",108,150587,"career","career","career","family","career","true",""
"54","","iat",1323,"f",110,152164,"family","family","family","family","career","true",""
"55","","iat",1023,"f",112,153441,"family","family","family","family","career","true",""
"56","","iat",733,"f",114,154429,"family","family","family","family","career","true",""
"57","","iat",1275,"f",116,155958,"family","family","family","family","career","true",""
"58","","iat",751,"j",118,156964,"career","career","career","family","career","true",""
"59","","iat",1059,"j",120,158275,"career","career","career","family","career","true",""
"60","","iat",901,"j",122,159431,"career","career","career","family","career","true",""
"61","","iat",1774,"j",124,161458,"career","career","career","family","career","true",""
"62","","iat",648,"j",126,162360,"career","career","career","family","career","true",""
"63","","iat",796,"j",128,163410,"career","career","career","family","career","true",""
"64","","iat",574,"j",130,164239,"family","family","family","family","career","false",""
"65","","iat",755,"f",132,165248,"family","family","family","family","career","true",""
"66","","iat",765,"j",134,166268,"career","career","career","family","career","true",""
"67","","iat",1100,"j",136,167623,"career","career","career","family","career","true",""
"68","","iat",687,"j",138,168565,"career","career","career","family","career","true",""
"69","","iat",1221,"f",140,170041,"family","family","family","family","career","true",""
"70","","iat",832,"j",142,171127,"career","career","career","family","career","true",""
"71","","iat",1577,"f",144,172959,"family","family","family","family","career","true",""
"72","","iat",1055,"f",146,174268,"family","family","family","family","career","true",""
"73","","iat",866,"j",148,175388,"career","career","career","family","career","true",""
"74","","iat",912,"j",151,180048,"career","career","women or career","family","career","true",""
"75","","iat",2096,"f",153,182398,"family","family","men or family","family","career","true",""
"76","","iat",812,"j",155,183464,"women","women","women or career","men","women","true",""
"77","","iat",1162,"j",157,184879,"women","women","women or career","men","women","true",""
"78","","iat",841,"f",159,185973,"family","family","men or family","family","career","true",""
"79","","iat",1764,"j",161,187990,"career","career","women or career","family","career","true",""
"80","","iat",1012,"f",163,189257,"men","men","men or family","men","women","true",""
"81","","iat",1357,"j",165,190866,"women","women","women or career","men","women","true",""
"82","","iat",853,"f",167,191973,"family","family","men or family","family","career","true",""
"83","","iat",1095,"j",169,193323,"career","career","women or career","family","career","true",""
"84","","iat",1191,"j",171,194768,"career","career","women or career","family","career","true",""
"85","","iat",656,"j",173,195679,"women","women","women or career","men","women","true",""
"86","","iat",672,"j",175,196604,"women","women","women or career","men","women","true",""
"87","","iat",1778,"f",177,198635,"men","men","men or family","men","women","true",""
"88","","iat",717,"f",179,199606,"family","family","men or family","family","career","true",""
"89","","iat",670,"f",181,200531,"family","family","men or family","family","career","true",""
"90","","iat",802,"f",183,201588,"family","family","men or family","family","career","true",""
"91","","iat",712,"f",185,202554,"family","family","men or family","family","career","true",""
"92","","iat",656,"f",187,203465,"men","men","men or family","men","women","true",""
"93","","iat",1123,"j",189,204842,"women","women","women or career","men","women","true",""
"94","","iat",731,"f",191,205828,"men","men","men or family","men","women","true",""
"95","","iat",906,"j",193,206989,"career","career","women or career","family","career","true",""
"96","","iat",675,"f",195,207919,"family","family","men or family","family","career","true",""
"97","","iat",916,"j",197,209088,"career","career","women or career","family","career","true",""
"98","","iat",905,"f",199,210249,"family","family","men or family","family","career","true",""
"99","","iat",894,"f",201,211397,"men","men","men or family","men","women","true",""
"100","","iat",728,"j",203,212379,"women","women","women or career","men","women","true",""
"101","","iat",677,"j",205,213310,"career","career","women or career","family","career","true",""
"102","","iat",820,"f",207,214383,"men","men","men or family","men","women","true",""
"103","","iat",839,"j",209,215475,"women","women","women or career","men","women","true",""
"104","","iat",647,"j",211,216377,"career","career","women or career","family","career","true",""
"105","","iat",820,"f",213,217451,"men","men","men or family","men","women","true",""
"106","","iat",675,"j",215,218380,"career","career","women or career","family","career","true",""
"107","","iat",769,"f",217,219403,"men","men","men or family","men","women","true",""
"108","","iat",1088,"j",219,220745,"career","career","women or career","family","career","true",""
"109","","iat",1102,"f",221,222101,"family","family","men or family","family","career","true",""
"110","","iat",1977,"f",224,228790,"career","career","men or career","career","family","true",""
"111","","iat",1106,"j",226,230150,"family","family","women or family","career","family","true",""
"112","","iat",1601,"f",228,232005,"men","men","men or career","men","women","true",""
"113","","iat",1412,"j",230,233672,"women","women","women or family","men","women","true",""
"114","","iat",994,"f",232,234920,"men","men","men or career","men","women","true",""
"115","","iat",922,"j",234,236096,"women","women","women or family","men","women","true",""
"116","","iat",1575,"j",236,237924,"career","career","men or career","career","family","false",""
"117","","iat",1975,"j",238,240153,"family","family","women or family","career","family","true",""
"118","","iat",3193,"f",240,243601,"family","family","women or family","career","family","false",""
"119","","iat",2312,"j",242,246167,"women","women","women or family","men","women","true",""
"120","","iat",3240,"f",244,249662,"men","men","men or career","men","women","true",""
"121","","iat",933,"f",246,250849,"career","career","men or career","career","family","true",""
"122","","iat",720,"f",248,251823,"career","career","men or career","career","family","true",""
"123","","iat",713,"f",250,252790,"career","career","men or career","career","family","true",""
"124","","iat",838,"j",252,253883,"men","men","men or career","men","women","false",""
"125","","iat",1959,"f",254,256095,"men","men","men or career","men","women","true",""
"126","","iat",940,"j",256,257289,"women","women","women or family","men","women","true",""
"127","","iat",2916,"f",258,260459,"men","men","men or career","men","women","true",""
"128","","iat",914,"j",260,261627,"family","family","women or family","career","family","true",""
"129","","iat",1009,"f",262,262891,"career","career","men or career","career","family","true",""
"130","","iat",1127,"j",264,264271,"women","women","women or family","men","women","true",""
"131","","iat",1288,"j",266,265813,"family","family","women or family","career","family","true",""
"132","","iat",1108,"j",268,267173,"women","women","women or family","men","women","true",""
"133","","iat",960,"j",270,268387,"family","family","women or family","career","family","true",""
"134","","iat",1022,"j",272,269663,"family","family","women or family","career","family","true",""
"135","","iat",1644,"j",274,271562,"women","women","women or family","men","women","true",""
"136","","iat",679,"j",276,272495,"women","women","women or family","men","women","true",""
"137","","iat",713,"f",278,273462,"men","men","men or career","men","women","true",""
"138","","iat",686,"f",280,274403,"men","men","men or career","men","women","true",""
"139","","iat",835,"j",282,275492,"career","career","men or career","career","family","false",""
"140","","iat",2087,"f",284,277833,"men","men","men or career","men","women","true",""
"141","","iat",725,"f",286,278812,"women","women","women or family","men","women","false",""
"142","","iat",1236,"j",288,280303,"family","family","women or family","career","family","true",""
"143","","iat",1364,"j",290,281922,"family","family","women or family","career","family","true",""
"144","","iat",1327,"f",292,283503,"men","men","men or career","men","women","true",""
"145","","iat",678,"f",294,284436,"career","career","men or career","career","family","true",""
"146","","Questionnaire",84544,"{""question1"":1,""question2"":1,""question3"":1,""question4"":0,""question5"":1,""question6"":3,""question7"":3,""question8"":0,""question9"":0,""question10"":4,""question11"":0,""question12"":4,""question13"":4,""question14"":4,""question15"":0}",296,369252,"","","","","","","[0,1,2,3,4,5,6,7,8,9,10,11,12,13,14]"
